Data from Transmission_11-10-04-542.txt Node
Date: Fri Aug 02 11:10:04 EDT 2019
User: maxen
Spectrometer: USB2G16502
Scans to average: 1
Trigger mode: 4
Integration Time (sec): 1,000000E-1
Electric dark correction enabled: true
Boxcar width: 0
XAxis mode: Wavelengths
Number of Pixels in Spectrum: 2048
>>>>>Begin Spectral Data<<<<<
339,156	-950
339,534	103
339,911	96,25
340,288	-387,5
340,665	-770
341,042	490
341,419	-387,5
341,796	-93,9
342,173	60,2
342,55	1187,5
342,927	157,69
343,304	103,66
343,68	-29,55
344,057	145,65
344,434	-1512,5
344,811	-82,14
345,187	-612,5
345,564	6,25
345,941	512,5
346,317	490
346,694	-82,14
347,07	296,15
347,447	-120,31
347,823	240,32
348,199	175
348,576	-387,5
348,952	81,9
349,328	66,38
349,705	96,25
350,081	573,08
350,457	124,19
350,833	-35,94
351,209	213,41
351,585	60,2
351,961	3,29
352,337	670
352,713	-137,1
353,089	-1287,5
353,465	-167,39
353,841	67,39
354,217	-188,46
354,593	512,5
354,968	88,46
355,344	110,71
355,72	-188,46
356,095	46,43
356,471	-10,87
356,847	-82,14
357,222	-11,21
357,598	66,38
357,973	490
358,349	-837,5
358,724	287,5
359,099	97,76
359,475	-89,13
359,85	-119,23
360,225	51,25
360,6	-17,86
360,976	17,16
361,351	143,97
361,726	134,09
362,101	287,5
362,476	66,47
362,851	-162,5
363,226	62,5
363,601	85
363,976	28,75
364,351	-770
364,726	153,23
365,1	-82,14
365,475	62,5
365,85	287,5
366,225	-275
366,599	310
366,974	226,92
367,348	737,5
367,723	3,73
368,097	287,5
368,472	98,03
368,846	25,79
369,221	-92,19
369,595	-50
369,969	-10,87
370,344	-206,52
370,718	-11,21
371,092	153,23
371,466	-29,55
371,841	256,82
372,215	-403,57
372,589	95,16
372,963	141,25
373,337	35,34
373,711	95,16
374,085	-83,75
374,459	73,75
374,832	962,5
375,206	76,56
375,58	93,18
375,954	-590
376,327	-7,81
376,701	19,23
377,075	46,43
377,448	-38,31
377,822	132,81
378,195	157,69
378,569	15,85
378,942	-7,81
379,316	124,19
379,689	-410
380,063	-162,5
380,436	67,39
380,809	-20,97
381,182	46,43
381,556	-1287,5
381,929	97,41
382,302	-16,25
382,675	338,64
383,048	67
383,421	44,03
383,794	310
384,167	-50
384,54	-119,23
384,913	84,33
385,286	37,1
385,659	-10,87
386,031	115,31
386,404	73,75
386,777	-35,94
387,149	157,69
387,522	670
387,895	-137,1
388,267	115,31
388,64	-50
389,012	62,5
389,385	106,52
389,757	134,09
390,129	310
390,502	93,18
390,874	66,13
391,246	573,08
391,619	133,67
391,991	287,5
392,363	-410
392,735	-42,24
393,107	93,18
393,479	73,75
393,851	-315,91
394,223	670
394,595	-7,65
394,967	19,83
395,339	23,47
395,711	-16,25
396,082	157,69
396,454	-275
396,826	19,23
397,198	-162,5
397,569	60,11
397,941	96,94
398,312	38,82
398,684	-50
399,055	-11,21
399,427	-123,47
399,798	-50
400,17	2,66
400,541	4,31
400,912	2,07
401,284	19,83
401,655	10,27
402,026	19,95
402,397	7,77
402,768	28,61
403,139	-3,92
403,51	30,25
403,881	32,53
404,252	25,68
404,623	-9,57
404,994	-45,34
405,365	10,15
405,736	10,77
406,107	16,78
406,477	19,05
406,848	8,99
407,219	7,54
407,59	-3,79
407,96	0,55
408,331	-5,86
408,701	13,37
409,072	4,43
409,442	3,77
409,813	7,2
410,183	-5,36
410,553	10,42
410,924	0,4
411,294	0,31
411,664	5,65
412,034	2,55
412,405	-0,71
412,775	2,81
413,145	0,24
413,515	0,98
413,885	2,44
414,255	-5,46
414,625	1,49
414,995	1,46
415,364	-1,57
415,734	0,66
416,104	-0,87
416,474	0,63
416,844	1,97
417,213	0,13
417,583	-0,29
417,952	0,87
418,322	2,59
418,692	0,79
419,061	2,38
419,43	3,15
419,8	1,85
420,169	0,63
420,539	2,23
420,908	1,07
421,277	1,53
421,646	2,08
422,016	1,3
422,385	1,85
422,754	1,04
423,123	1,35
423,492	0,91
423,861	1,4
424,23	0,2
424,599	1,11
424,968	1,07
425,337	1,72
425,705	1,07
426,074	1,44
426,443	1,28
426,812	0,72
427,18	0,83
427,549	0,69
427,918	1,77
428,286	1,77
428,655	1,69
429,023	1,11
429,392	1,43
429,76	1,27
430,128	1,83
430,497	1,34
430,865	1,45
431,233	1,48
431,601	1,06
431,97	0,99
432,338	0,97
432,706	1,31
433,074	1,22
433,442	1,61
433,81	1
434,178	0,92
434,546	1,17
434,914	1,32
435,281	1,36
435,649	0,9
436,017	0,75
436,385	1,14
436,752	1,09
437,12	0,89
437,488	1,05
437,855	0,94
438,223	0,86
438,59	0,7
438,958	0,88
439,325	0,71
439,693	0,87
440,06	0,29
440,427	0,65
440,794	0,6
441,162	0,7
441,529	0,72
441,896	0,82
442,263	1,02
442,63	0,28
442,997	0,46
443,364	0,96
443,731	0,7
444,098	1,16
444,465	0,65
444,832	1,25
445,199	0,95
445,566	0,03
445,932	0,41
446,299	1,43
446,666	0,04
447,032	0,31
447,399	0,74
447,765	0,75
448,132	0,34
448,498	0,92
448,865	0,64
449,231	0,2
449,597	-0,12
449,964	-0,93
450,33	0,89
450,696	1,02
451,063	0,38
451,429	1,1
451,795	1,45
452,161	0,75
452,527	0,77
452,893	0,42
453,259	0,23
453,625	1,85
453,991	0,61
454,357	1,04
454,722	0,25
455,088	1,62
455,454	0,27
455,82	1,5
456,185	1,98
456,551	2,45
456,916	1,17
457,282	2,07
457,648	0,06
458,013	1,7
458,378	0,75
458,744	-0,18
459,109	1,08
459,474	1,32
459,84	2,25
460,205	1,08
460,57	1,56
460,935	3,02
461,3	2,1
461,666	2,15
462,031	1,09
462,396	3,13
462,761	2,07
463,126	-0,18
463,49	1,6
463,855	1,07
464,22	1,75
464,585	2,29
464,95	2,33
465,314	0,3
465,679	0,78
466,044	-0,39
466,408	1,94
466,773	1,18
467,137	-0,39
467,502	1,58
467,866	1,14
468,23	0,49
468,595	0,06
468,959	1,87
469,323	0,47
469,688	0,83
470,052	0,82
470,416	0,97
470,78	0,8
471,144	1,16
471,508	2,59
471,872	1,61
472,236	1,41
472,6	0,68
472,964	1,18
473,328	0,2
473,692	1,47
474,055	0,5
474,419	1,38
474,783	1,94
475,146	0,6
475,51	1,44
475,874	0,31
476,237	0,58
476,601	2,23
476,964	0,42
477,327	2,01
477,691	0,4
478,054	0,77
478,417	1,57
478,781	0,37
479,144	0,81
479,507	1,99
479,87	0,99
480,233	1,72
480,596	2,21
480,959	2,29
481,322	2,38
481,685	2,06
482,048	3,01
482,411	3,18
482,774	3,72
483,137	4,95
483,499	5,62
483,862	6,43
484,225	7,73
484,588	9,25
484,95	9,35
485,313	11,91
485,675	13,65
486,038	14,6
486,4	16,93
486,762	19,45
487,125	21
487,487	21,91
487,849	24,63
488,212	26,3
488,574	28,6
488,936	29,75
489,298	33,25
489,66	35,52
490,022	37,57
490,384	42,16
490,746	42,89
491,108	46,33
491,47	49,07
491,832	51,55
492,194	53,45
492,555	58,49
492,917	60,46
493,279	61,77
493,64	64,87
494,002	67,03
494,364	68,52
494,725	71,78
495,087	72,7
495,448	74,55
495,809	77,79
496,171	79,61
496,532	81,91
496,893	82,3
497,255	83,51
497,616	84,95
497,977	88,77
498,338	90,78
498,699	90,69
499,06	91,98
499,421	92,38
499,782	90,84
500,143	90,06
500,504	91,87
500,865	93,6
501,226	94,62
501,586	93,69
501,947	94,27
502,308	93,82
502,669	95,27
503,029	94,67
503,39	96,31
503,75	94,66
504,111	93,74
504,471	92,26
504,832	91,92
505,192	94,3
505,552	95,5
505,913	97,83
506,273	96
506,633	96,31
506,993	94,13
507,353	94,5
507,713	92,65
508,073	93,17
508,433	93,24
508,793	94,59
509,153	95,93
509,513	95,01
509,873	96,52
510,233	93,98
510,593	93,54
510,952	93,14
511,312	95,26
511,672	95,02
512,031	96,09
512,391	95,95
512,75	94,65
513,11	94,12
513,469	94,72
513,829	94,77
514,188	94,01
514,548	96,48
514,907	95,62
515,266	96,26
515,625	93,71
515,984	95,77
516,344	95,04
516,703	94,37
517,062	93,3
517,421	94,89
517,78	94,2
518,139	96,1
518,497	95,46
518,856	97,07
519,215	93,89
519,574	95,9
519,933	95,56
520,291	92,13
520,65	92,73
521,009	96,26
521,367	97,83
521,726	98,79
522,084	95,56
522,443	92,99
522,801	95,18
523,159	95,43
523,518	94,18
523,876	93,98
524,234	95,47
524,592	95,82
524,95	96,67
525,309	96,04
525,667	97,51
526,025	97,25
526,383	97,18
526,741	95,96
527,099	93,29
527,456	95,31
527,814	96,59
528,172	96,57
528,53	95,64
528,887	96,59
529,245	95,3
529,603	98,07
529,96	96,81
530,318	95,69
530,675	94,74
531,033	95,25
531,39	97,27
531,748	98,82
532,105	95,82
532,462	96,19
532,82	95,21
533,177	95,62
533,534	95,89
533,891	96,41
534,248	98,56
534,605	98,05
534,962	95,88
535,319	94,47
535,676	95,9
536,033	94,58
536,39	95,8
536,747	96,37
537,104	96,8
537,46	96,33
537,817	96,75
538,174	98
538,53	97,87
538,887	96,58
539,243	96,99
539,6	95,07
539,956	96
540,313	94,63
540,669	95,7
541,025	95,81
541,382	97,68
541,738	96,38
542,094	95,89
542,45	96,26
542,806	98,06
543,162	96,73
543,518	96,29
543,874	96,44
544,23	94,98
544,586	94,65
544,942	95,93
545,298	95,8
545,654	98,48
546,009	98,41
546,365	97,12
546,721	94,63
547,076	94,45
547,432	95,22
547,788	95,9
548,143	97,52
548,499	96,63
548,854	97,54
549,209	97,02
549,565	96,09
549,92	93,95
550,275	96,44
550,63	95,28
550,986	97,73
551,341	95,38
551,696	95,11
552,051	96,36
552,406	96,02
552,761	98,46
553,116	98,2
553,471	95,45
553,825	95,78
554,18	95,74
554,535	97,14
554,89	96,29
555,244	96,61
555,599	95,66
555,954	96,84
556,308	96,65
556,663	96,79
557,017	96,47
557,371	96,85
557,726	97,01
558,08	97,94
558,435	96,45
558,789	95,89
559,143	96,25
559,497	95,65
559,851	96,82
560,205	97,22
560,559	98,15
560,913	97,89
561,267	97,15
561,621	96,69
561,975	97,24
562,329	96,19
562,683	98,26
563,037	95,75
563,39	96,93
563,744	95,94
564,098	97,04
564,451	97,89
564,805	97,86
565,158	96,45
565,512	97,28
565,865	98,01
566,218	96,09
566,572	95,52
566,925	96,36
567,278	95,82
567,632	96,87
567,985	96,97
568,338	97,4
568,691	96,02
569,044	96,99
569,397	96,34
569,75	95,57
570,103	96,2
570,456	96,99
570,809	99,35
571,161	95,94
571,514	95,73
571,867	93,87
572,22	96,79
572,572	97,35
572,925	97,37
573,277	96,1
573,63	95,19
573,982	95,95
574,335	96,33
574,687	96,01
575,039	96,74
575,392	96,84
575,744	97,33
576,096	96,53
576,448	93,92
576,8	96,77
577,152	98,66
577,504	97,59
577,856	95,99
578,208	96,3
578,56	94,86
578,912	95,54
579,264	96,04
579,616	97,64
579,968	98,01
580,319	98,13
580,671	96,2
581,022	97,61
581,374	97,46
581,726	96,05
582,077	95,19
582,429	93,82
582,78	96,48
583,131	96,84
583,483	98,25
583,834	97,64
584,185	96,25
584,536	96,51
584,887	96,1
585,239	96,76
585,59	96,34
585,941	97,07
586,292	95,93
586,643	95,98
586,993	95,74
587,344	96,94
587,695	96,23
588,046	95,45
588,397	98,24
588,747	96,8
589,098	96,63
589,448	94,43
589,799	95,67
590,15	96,67
590,5	97,71
590,85	97,42
591,201	95,89
591,551	95,56
591,901	94,76
592,252	96,17
592,602	97,26
592,952	97,05
593,302	95,16
593,652	97,03
594,002	95,88
594,352	96,79
594,702	95,66
595,052	97,83
595,402	97,28
595,752	96,37
596,102	95,19
596,451	94,41
596,801	97
597,151	97,26
597,5	97,56
597,85	95,8
598,199	96,3
598,549	96,56
598,898	96,26
599,248	97,33
599,597	95,35
599,946	96,48
600,296	96,65
600,645	96,91
600,994	98,06
601,343	96,18
601,692	96,68
602,041	94,69
602,39	96,19
602,739	97,31
603,088	95,88
603,437	98,44
603,786	96,46
604,135	95,95
604,484	94,81
604,832	96,39
605,181	96,69
605,53	96,53
605,878	96,55
606,227	96,17
606,575	95,27
606,924	96,12
607,272	97,27
607,621	96,88
607,969	95,26
608,317	95,07
608,665	96,92
609,014	94,31
609,362	95,41
609,71	96,99
610,058	96,07
610,406	97,14
610,754	96,32
611,102	96,5
611,45	96,81
611,798	96,99
612,145	96,98
612,493	97,31
612,841	95,54
613,189	96,78
613,536	95,02
613,884	98,9
614,231	97,33
614,579	96,12
614,926	96,46
615,274	95,41
615,621	94,63
615,968	94,26
616,316	95,99
616,663	95,84
617,01	95,8
617,357	96,95
617,704	95,65
618,051	95,44
618,398	94,78
618,745	95,66
619,092	95,38
619,439	96,86
619,786	97,34
620,133	95,99
620,48	95,98
620,826	96,35
621,173	95
621,52	95,26
621,866	95,85
622,213	95,57
622,559	96,37
622,906	97,12
623,252	98,58
623,599	97,28
623,945	96,52
624,291	93,74
624,638	95,47
624,984	94,51
625,33	96,32
625,676	95,2
626,022	96,27
626,368	95,93
626,714	94,45
627,06	95,88
627,406	96,01
627,752	96,87
628,098	95,38
628,443	95,22
628,789	94,48
629,135	94,79
629,48	94,97
629,826	94,91
630,171	96,82
630,517	97,02
630,862	94,43
631,208	95,9
631,553	95,62
631,898	92,55
632,244	95,27
632,589	98,67
632,934	96,7
633,279	97,82
633,624	94,65
633,97	94,33
634,315	95,44
634,659	95,57
635,004	96,96
635,349	97,28
635,694	98,5
636,039	95,06
636,384	95,49
636,728	94,53
637,073	97,41
637,418	97,13
637,762	97,97
638,107	96,25
638,451	95,59
638,796	96,31
639,14	96,9
639,484	96
639,829	95,55
640,173	95,18
640,517	94,36
640,861	91,7
641,206	96,49
641,55	97,75
641,894	99,11
642,238	98,91
642,582	94,92
642,926	95,02
643,269	96,86
643,613	96,64
643,957	94,55
644,301	98,25
644,645	100,41
644,988	99,25
645,332	97,44
645,675	100,09
646,019	94,15
646,362	94,55
646,706	90,85
647,049	98,03
647,392	96,51
647,736	97,6
648,079	96,67
648,422	97,76
648,765	97,3
649,108	96,3
649,452	100,34
649,795	98,28
650,138	98,16
650,48	97,52
650,823	95,4
651,166	94,48
651,509	98,06
651,852	95,45
652,195	98,14
652,537	98,13
652,88	97,29
653,222	97,21
653,565	97,65
653,907	97,52
654,25	96,53
654,592	96,8
654,935	94,6
655,277	94,31
655,619	94,69
655,961	94,2
656,304	99,23
656,646	98,01
656,988	97,97
657,33	96,22
657,672	97,16
658,014	97,78
658,356	95,29
658,698	97,26
659,039	98,03
659,381	95,9
659,723	95,68
660,065	96,79
660,406	93,12
660,748	96,5
661,089	96,83
661,431	96
661,772	96,97
662,114	95,47
662,455	94,2
662,797	93,75
663,138	99,97
663,479	100,95
663,82	95,43
664,161	98,96
664,503	97,01
664,844	97,35
665,185	96,72
665,526	94,94
665,867	96,66
666,207	95,63
666,548	94,76
666,889	99,09
667,23	97,56
667,57	93,12
667,911	98,41
668,252	96
668,592	92,76
668,933	98,31
669,273	97,15
669,614	96,14
669,954	97,29
670,294	101,19
670,635	93,69
670,975	92,63
671,315	95,34
671,655	95
671,995	93,96
672,336	99,41
672,676	96,73
673,016	96,75
673,355	95,56
673,695	98,81
674,035	92,42
674,375	97,06
674,715	96,44
675,054	93,55
675,394	96,67
675,734	96,31
676,073	97,8
676,413	95,3
676,752	98,32
677,092	97,63
677,431	94,31
677,77	97,64
678,11	93,99
678,449	96,23
678,788	94,92
679,127	97,12
679,467	97,5
679,806	94,69
680,145	96,18
680,484	95,36
680,823	93,91
681,161	94,04
681,5	95,5
681,839	96,83
682,178	105,61
682,517	97,54
682,855	94,06
683,194	100,75
683,532	97,5
683,871	95,86
684,209	92,06
684,548	95,13
684,886	94,85
685,225	96,72
685,563	98,54
685,901	91,31
686,239	92,11
686,578	104,91
686,916	92,32
687,254	97,49
687,592	95,49
687,93	97,37
688,268	100,94
688,606	95,24
688,943	90,61
689,281	98,84
689,619	99,4
689,957	94,11
690,294	96,35
690,632	93,51
690,969	93,67
691,307	99,36
691,644	96,54
691,982	95,32
692,319	102,92
692,657	101,14
692,994	96,2
693,331	92,45
693,668	94,36
694,006	103,88
694,343	102,51
694,68	101,24
695,017	96,13
695,354	98,54
695,691	93,33
696,028	97,78
696,364	97,81
696,701	89,92
697,038	94,23
697,375	95,82
697,711	95,73
698,048	97,61
698,384	92,32
698,721	96,01
699,057	104,84
699,394	100,65
699,73	92,27
700,066	102,22
700,403	104,08
700,739	93,49
701,075	103,18
701,411	98,99
701,747	91,76
702,083	98,02
702,419	92,67
702,755	100,82
703,091	92,39
703,427	98,94
703,763	96,29
704,099	97,98
704,435	100,84
704,77	98,85
705,106	98,9
705,441	100,87
705,777	88,68
706,113	97,73
706,448	93,74
706,783	94,53
707,119	102,97
707,454	88,42
707,789	95,81
708,125	105,93
708,46	94,09
708,795	92,43
709,13	115,16
709,465	98,68
709,8	87,79
710,135	87,64
710,47	94,16
710,805	87,96
711,139	98,57
711,474	96,25
711,809	97,37
712,144	102,43
712,478	90,75
712,813	95,57
713,147	106,67
713,482	97,09
713,816	98,37
714,151	102,46
714,485	87,71
714,819	101,22
715,153	101,17
715,488	96,53
715,822	96,79
716,156	94,55
716,49	91,86
716,824	98,16
717,158	110,33
717,492	99,73
717,826	96,83
718,16	96,42
718,493	99,7
718,827	111,31
719,161	92,99
719,494	105,2
719,828	95,16
720,161	111,56
720,495	94,29
720,828	104,93
721,162	94,67
721,495	97,86
721,829	84,04
722,162	103,63
722,495	97,78
722,828	99,66
723,161	91,74
723,494	95,53
723,827	89,33
724,16	93,18
724,493	106,68
724,826	93,72
725,159	87,27
725,492	91,4
725,825	114,11
726,157	81,2
726,49	89,11
726,823	104,9
727,155	111,39
727,488	99,58
727,82	81,83
728,153	105,03
728,485	109,72
728,817	90,41
729,15	102,17
729,482	124,24
729,814	113,26
730,146	104,65
730,478	112,59
730,81	90,41
731,142	85,82
731,474	114,9
731,806	92,38
732,138	113,02
732,47	118,55
732,801	86,75
733,133	120,43
733,465	114,45
733,796	85
734,128	99,52
734,46	84,37
734,791	102,74
735,122	91,97
735,454	99,39
735,785	102,65
736,116	95,9
736,448	86,75
736,779	83,71
737,11	103,89
737,441	95,02
737,772	133,42
738,103	78,86
738,434	81,56
738,765	92,38
739,096	75,66
739,427	96,04
739,758	91,07
740,088	103,55
740,419	115,36
740,75	80,46
741,08	71,75
741,411	92,64
741,741	89,4
742,072	94
742,402	99,41
742,732	99,26
743,063	82,23
743,393	117,88
743,723	86,49
744,053	108,17
744,383	117,23
744,713	94,56
745,043	94,29
745,373	60,07
745,703	95,02
746,033	108,17
746,363	106,2
746,693	79,62
747,022	104,78
747,352	105,07
747,682	73,43
748,011	105,77
748,341	99,1
748,67	140,59
749	118,35
749,329	75,76
749,659	68,07
749,988	99,18
750,317	58
750,646	74,55
750,975	103,55
751,305	114,73
751,634	107,28
751,963	83,71
752,292	81,85
752,62	99,14
752,949	64,65
753,278	74,34
753,607	117,23
753,936	186,25
754,264	93,67
754,593	117,55
754,922	94,56
755,25	64,23
755,579	71,15
755,907	116,02
756,235	145,39
756,564	87,65
756,892	64,65
757,22	190,52
757,548	87,65
757,877	81,07
758,205	124,82
758,533	97,41
758,861	57,46
759,189	57,31
759,517	81,07
759,844	98,03
760,172	107,98
760,5	80,74
760,828	109,87
761,155	168,45
761,483	77,06
761,811	77,06
762,138	98,4
762,466	38,82
762,793	91,92
763,12	119,41
763,448	127,13
763,775	98,54
764,102	74,34
764,429	124,63
764,757	143,97
765,084	70,9
765,411	45,29
765,738	60,11
766,065	98,03
766,392	98,54
766,718	37,38
767,045	208,75
767,372	81,9
767,699	108,82
768,025	98,24
768,352	253,75
768,678	44,03
769,005	240,32
769,331	143,97
769,658	186,25
769,984	157,69
770,31	118,75
770,637	81,07
770,963	153,23
771,289	143,97
771,615	108,82
771,941	35,34
772,267	22,69
772,593	119,41
772,919	145,39
773,245	51,25
773,571	61,57
773,897	124,19
774,222	95,16
774,548	86,18
774,874	73,75
775,199	141,25
775,525	-119,23
775,85	159,48
776,176	91,32
776,501	5,1
776,827	128,45
777,152	6,25
777,477	97,41
777,802	23,47
778,128	138,06
778,453	66,47
778,778	70,9
779,103	60,2
779,428	118,75
779,753	208,75
780,077	338,64
780,402	78,57
780,727	-50
781,052	215,91
781,376	-29,55
781,701	297,73
782,026	106,7
782,35	269,35
782,675	45,29
782,999	19,83
783,323	231,25
783,648	69,68
783,972	175
784,296	-152,27
784,62	87,65
784,944	35,34
785,269	50,86
785,593	133,67
785,917	130
786,24	124,19
786,564	1412,5
786,888	182,26
787,212	207,14
787,536	1187,5
787,859	182,26
788,183	-5
788,507	9,56
788,83	-119,23
789,154	365,38
789,477	141,25
789,8	-387,5
790,124	124,19
790,447	-17,86
790,77	98,4
791,094	-50
791,417	-64,06
791,74	86,18
792,063	28,75
792,386	269,35
792,709	170,41
793,032	130
793,355	-64,06
793,677	124,19
794	136,7
794,323	670
794,645	-339,29
794,968	296,15
795,291	-20,97
795,613	182,26
795,936	231,25
796,258	15,85
796,58	95,16
796,903	-3,68
797,225	46,12
797,547	-10,87
797,869	215,91
798,191	28,26
798,513	73,75
798,836	134,09
799,157	85
799,479	51,25
799,801	-82,14
800,123	737,5
800,445	850
800,767	512,5
801,088	263,04
801,41	134,09
801,731	66,38
802,053	115,31
802,374	93,18
802,696	-16,49
803,017	365,38
803,339	-146,43
803,66	118,75
803,981	-410
804,302	118,75
804,623	296,15
804,944	-38,75
805,265	66,47
805,586	143,97
805,907	44,03
806,228	503,85
806,549	152,04
806,87	28,75
807,191	118,75
807,511	104,69
807,832	188,78
808,152	-410
808,473	66,13
808,793	153,23
809,114	134,09
809,434	215,91
809,755	-193,18
810,075	-7,81
810,395	106,52
810,715	23,47
811,035	78,57
811,355	-93,9
811,676	175
811,995	-26,72
812,315	81,71
812,635	38,82
812,955	-128,26
813,275	95,16
813,595	-79,03
813,914	226,92
814,234	28,75
814,554	19,23
814,873	132,81
815,193	96,94
815,512	37,1
815,831	48,44
816,151	19,23
816,47	73,75
816,789	102,54
817,108	50,86
817,428	101,95
817,747	239,29
818,066	-770
818,385	73,75
818,704	37,1
819,022	96,94
819,341	31
819,66	-41
819,979	130
820,298	-1130
820,616	118,75
820,935	97,76
821,253	175
821,572	170,41
821,89	84,33
822,209	434,62
822,527	-20,97
822,845	157,69
823,163	62,5
823,482	96,94
823,8	67
824,118	44,03
824,436	15,13
824,754	145,65
825,072	-387,5
825,39	-95
825,707	367,86
826,025	19,23
826,343	287,5
826,661	-234,09
826,978	-1310
827,296	737,5
827,613	-108,06
827,931	239,29
828,248	52,27
828,566	239,29
828,883	98,4
829,2	19,23
829,517	-50
829,835	-70,45
830,152	-70,45
830,469	-35,94
830,786	57,46
831,103	117,8
831,42	850
831,737	66,13
832,053	52,27
832,37	-204,69
832,687	-70,45
833,004	24,12
833,32	4,31
833,637	434,62
833,953	490
834,27	-837,5
834,586	38,82
834,903	-7,81
835,219	115,31
835,535	67
835,851	296,15
836,168	73,75
836,484	962,5
836,8	110,71
837,116	287,5
837,432	-119,23
837,748	28,26
838,063	-837,5
838,379	-128,26
838,695	132,81
839,011	175
839,326	-61,25
839,642	-29,55
839,958	145,65
840,273	66,13
840,589	59,76
840,904	41,84
841,219	106,52
841,535	74,34
841,85	96,25
842,165	52,27
842,48	-61,25
842,795	211
843,11	66,38
843,425	86,18
843,74	-162,5
844,055	-234,09
844,37	118,75
844,685	134,09
845	157,69
845,314	-193,18
845,629	96,94
845,944	1210
846,258	175
846,573	81,9
846,887	17,16
847,201	11,17
847,516	211,29
847,83	-29,55
848,144	297,73
848,458	-61,25
848,773	73,75
849,087	-50
849,401	-612,5
849,715	97,41
850,029	51,25
850,342	175
850,656	130
850,97	-15,05
851,284	-50
851,597	118,75
851,911	51,25
852,225	18,3
852,538	-42,24
852,852	52,27
853,165	41,84
853,478	26,97
853,792	-119,23
854,105	13,53
854,418	41,84
854,731	98,76
855,044	73,75
855,357	3,73
855,67	-61,25
855,983	-42,24
856,296	50,38
856,609	57,46
856,922	-117,16
857,235	130
857,547	41,84
857,86	12,23
858,173	2,94
858,485	41,84
858,798	84,33
859,11	-1287,5
859,423	-16,25
859,735	17,16
860,047	-119,23
860,359	157,69
860,672	-67,76
860,984	51,25
861,296	-38,75
861,608	37,38
861,92	17,16
862,232	115,31
862,544	2,43
862,855	37,1
863,167	-86,73
863,479	-106,25
863,791	28,64
864,102	3,73
864,414	30,6
864,725	-50
865,037	24,12
865,348	-42,24
865,659	-7,65
865,971	11,17
866,282	77,06
866,593	-36,57
866,904	-106,25
867,215	23,47
867,527	38,18
867,838	-44,08
868,148	-50
868,459	6,25
868,77	-50
869,081	72,33
869,392	34,71
869,702	4,31
870,013	-50
870,324	-57,76
870,634	14,75
870,945	4,31
871,255	1,92
871,565	38,82
871,876	2,07
872,186	2,43
872,496	30,6
872,806	-18,24
873,116	-18,24
873,427	30,6
873,737	1,59
874,047	26,97
874,356	28,64
874,666	-27,69
874,976	-61,25
875,286	-23,79
875,596	27,14
875,905	8,85
876,215	2,94
876,524	-166,13
876,834	-35,64
877,143	-15,05
877,453	1,92
877,762	21,81
878,071	-15,05
878,38	50,53
878,69	9,5
878,999	-93,09
879,308	-50
879,617	31,82
879,926	17,16
880,235	-26,06
880,544	1,92
880,852	11,17
881,161	-21,87
881,47	-11,21
881,779	1,92
882,087	73,75
882,396	-6,31
882,704	32,29
883,013	38,18
883,321	-73,28
883,629	28,64
883,938	2,94
884,246	-9,87
884,554	13,53
884,862	-44,08
885,17	-7,65
885,478	24,38
885,786	-15,05
886,094	4,31
886,402	2,66
886,71	1,8
887,018	-15,05
887,325	4,31
887,633	8,27
887,941	4,31
888,248	40,65
888,556	-26,72
888,863	184,78
889,171	44,03
889,478	-57,76
889,785	-63,43
890,092	66,52
890,4	93,18
890,707	44,03
891,014	-42,24
891,321	21,81
891,628	-50
891,935	69,68
892,242	-9,7
892,548	-105,1
892,855	625
893,162	-71,18
893,469	18,3
893,775	66,38
894,082	175
894,388	-387,5
894,695	-20,97
895,001	-111,36
895,307	153,23
895,614	-23,13
895,92	50,86
896,226	93,18
896,532	19,23
896,838	-88,79
897,144	11,36
897,45	51,25
897,756	13,53
898,062	365,38
898,368	50,86
898,674	-1287,5
898,98	41,84
899,285	-16,25
899,591	-11,21
899,896	41,84
900,202	66,13
900,507	-79,03
900,813	41,84
901,118	-63,43
901,423	28,75
901,729	-32,24
902,034	850
902,339	10,27
902,644	-128,75
902,949	52,27
903,254	-152,27
903,559	28,75
903,864	67
904,169	-70,45
904,473	-50
904,778	41,84
905,083	15,13
905,387	50,86
905,692	-50
905,996	19,23
906,301	-50
906,605	37,8
906,909	-79,03
907,214	-79,03
907,518	60,11
907,822	81,9
908,126	31,38
908,43	512,5
908,734	157,69
909,038	85
909,342	-11,21
909,646	-61,25
909,95	178,81
910,254	-80,51
910,557	-17,86
910,861	-17,86
911,165	-119,23
911,468	5,1
911,772	106,52
912,075	-31,63
912,378	125,61
912,682	73,75
912,985	-18,24
913,288	96,94
913,591	191,46
913,894	1030
914,198	11,36
914,501	245,31
914,804	-38,75
915,106	239,29
915,409	850
915,712	-128,75
916,015	96,94
916,317	110,71
916,62	41,53
916,923	256,82
917,225	37,1
917,528	52,27
917,83	6,25
918,132	-28,05
918,435	-230
918,737	490
919,039	103,66
919,341	73,75
919,643	50,66
919,945	95,16
920,247	88,46
920,549	6,25
920,851	-2,63
921,153	50,66
921,455	96,94
921,757	1030
922,058	-50
922,36	962,5
922,661	-119,23
922,963	110,71
923,264	66,13
923,566	133,67
923,867	157,69
924,168	8,06
924,47	1187,5
924,771	-29,55
925,072	157,69
925,373	121
925,674	-275
925,975	112,93
926,276	96,94
926,577	153,23
926,878	59,88
927,178	434,62
927,479	-6,1
927,78	17,16
928,08	62,5
928,381	130
928,681	28,75
928,982	145,39
929,282	-111,36
929,582	850
929,883	11,36
930,183	106,52
930,483	51,25
930,783	-188,46
931,083	23,47
931,383	52,27
931,683	66,13
931,983	-387,5
932,283	-10,87
932,583	93,18
932,882	134,09
933,182	850
933,482	157
933,781	15,85
934,081	175
934,38	217,19
934,68	287,5
934,979	573,08
935,278	121
935,577	-71,95
935,877	302,17
936,176	-89,13
936,475	-31,63
936,774	302,17
937,073	211,29
937,372	-17,86
937,671	98,03
937,969	41,84
938,268	-1310
938,567	-119,23
938,865	37,1
939,164	-230
939,463	365,38
939,761	81,71
940,059	130
940,358	43,51
940,656	3,73
940,954	49
941,253	263,04
941,551	296,15
941,849	-230
942,147	-82,14
942,445	130
942,743	239,29
943,041	-50
943,339	141,25
943,636	8,06
943,934	-356,82
944,232	-10,87
944,529	670
944,827	-188,46
945,124	-50
945,422	1210
945,719	245,31
946,016	-35,94
946,314	175
946,611	287,5
946,908	67
947,205	8,06
947,502	-339,29
947,799	110,71
948,096	-387,5
948,393	-119,23
948,69	-6,1
948,987	-6,1
949,284	37,1
949,58	-50
949,877	145,65
950,173	-9,7
950,47	296,15
950,766	-770
951,063	28,26
951,359	76,56
951,655	19,23
951,952	93,18
952,248	104,69
952,544	72,03
952,84	28,26
953,136	124,19
953,432	182,26
953,728	85
954,024	104,69
954,32	118,75
954,615	-50
954,911	125,61
955,207	37,1
955,502	98,03
955,798	-70,45
956,093	-16,25
956,389	67,39
956,684	66,13
956,979	84,33
957,275	-50
957,57	-29,55
957,865	66,13
958,16	85
958,455	189,06
958,75	-83,75
959,045	130
959,34	-837,5
959,635	-1737,5
959,929	-50
960,224	134,09
960,519	-131
960,813	962,5
961,108	245,31
961,402	-70,45
961,697	189,06
961,991	46,43
962,286	138,06
962,58	37,1
962,874	104,69
963,168	-82,14
963,462	-162,5
963,756	-1962,5
964,05	-17,86
964,344	-167,39
964,638	-950
964,932	-105,1
965,226	134,09
965,519	67
965,813	-50
966,107	-465,38
966,4	184,78
966,694	490
966,987	62,5
967,281	73,75
967,574	-234,09
967,867	175
968,16	-71,95
968,453	-50
968,747	1412,5
969,04	-167,39
969,333	96,94
969,626	287,5
969,918	-1062,5
970,211	1210
970,504	67,39
970,797	97,76
971,089	490
971,382	19,23
971,675	51,25
971,967	296,15
972,259	-10,87
972,552	434,62
972,844	-396,15
973,136	130
973,429	60,2
973,721	157,69
974,013	13
974,305	103,66
974,597	-71,95
974,889	-111,36
975,181	-50
975,473	51,25
975,764	-1287,5
976,056	226,92
976,348	103
976,639	93,18
976,931	48,44
977,222	28,26
977,514	226,92
977,805	-162,5
978,096	287,5
978,388	62,5
978,679	737,5
978,97	310
979,261	-50
979,552	37,1
979,843	78,57
980,134	121
980,425	62,5
980,716	95,16
981,007	263,04
981,297	37,8
981,588	-1287,5
981,879	49,26
982,169	85
982,46	-108,06
982,75	-534,62
983,04	130
983,331	490
983,621	5,1
983,911	137,01
984,201	145,65
984,491	211,29
984,781	263,04
985,071	92,11
985,361	215,91
985,651	-50
985,941	-162,5
986,231	367,86
986,521	35,34
986,81	93,18
987,1	-387,5
987,389	-92,19
987,679	-50
987,968	48,44
988,258	56,78
988,547	66,88
988,836	11,36
989,125	-7,81
989,414	490
989,704	108,82
989,993	66,13
990,282	28,26
990,57	160,94
990,859	-234,09
991,148	850
991,437	37,8
991,726	-210,71
992,014	-50
992,303	-119,23
992,591	-108,06
992,88	-162,5
993,168	-29,55
993,456	-10,87
993,745	303,57
994,033	130
994,321	73,75
994,609	287,5
994,897	141,25
995,185	-64,06
995,473	-82,14
995,761	310
996,049	-4,24
996,337	130
996,625	15,85
996,912	49
997,2	22,79
997,487	28,75
997,775	-70,45
998,062	1187,5
998,35	48,44
998,637	145,65
998,924	-29,55
999,212	367,86
999,499	-837,5
999,786	60,11
1000,073	15,85
1000,36	-7,81
1000,647	-1062,5
1000,934	303,57
1001,221	-71,95
1001,507	15,85
1001,794	962,5
1002,081	-387,5
1002,367	76,56
1002,654	-119,23
1002,94	19,23
1003,227	23,47
1003,513	-837,5
1003,8	67,39
1004,086	338,64
1004,372	141,25
1004,658	73,75
1004,944	-79,03
1005,23	56,78
1005,516	95,16
1005,802	310
1006,088	76,56
1006,374	175
1006,66	-128,26
1006,945	104,69
1007,231	-837,5
1007,516	72,03
1007,802	134,09
1008,087	41,84
1008,373	175
1008,658	-108,06
1008,944	175
1009,229	1637,5
1009,514	-35,94
1009,799	-17,86
1010,084	-50
1010,369	-612,5
1010,654	49,26
1010,939	310
1011,224	-326,92
1011,509	-50
1011,793	56,78
1012,078	38,95
1012,363	28,26
1012,647	96,25
1012,932	153,23
1013,216	490
1013,5	124,19
1013,785	157,69
1014,069	81,9
1014,353	-590
1014,637	50,86
1014,922	-5
1015,206	-467,86
1015,49	145,65
1015,773	-9,7
1016,057	-71,95
1016,341	223,91
1016,625	66,13
1016,909	81,71
1017,192	269,35
1017,476	85
1017,759	51,25
1018,043	-275
1018,326	-152,27
1018,61	-108,06
1018,893	-152,27
1019,176	-7,81
1019,459	103,66
1019,742	72,03
1020,025	184,78
1020,308	81,71
1020,591	-50
1020,874	-7,81
1021,157	152,04
1021,44	367,86
1021,723	37,1
1022,005	28,75
1022,288	66,13
