Data from Transmission_19.txt Node
Date: Fri Jun 28 11:27:21 EDT 2019
User: maxen
Spectrometer: FLMS00239
Trigger mode: 0
Integration Time (sec): 1,000000E-1
Scans to average: 10
Electric dark correction enabled: true
Nonlinearity correction enabled: false
Boxcar width: 0
XAxis mode: Wavelengths
Number of Pixels in Spectrum: 2048
>>>>>Begin Spectral Data<<<<<
185,255	-41,98
185,731	-41,98
186,207	-41,98
186,683	26
187,159	69,29
187,635	178,67
188,111	91,61
188,587	38,27
189,062	25,14
189,538	213,52
190,014	8,75
190,489	5,68
190,965	43,76
191,44	11,83
191,915	7,81
192,391	48,38
192,866	-817,44
193,341	112,03
193,816	144,43
194,291	27,14
194,766	56,48
195,241	-1308,57
195,716	132,54
196,191	41,47
196,666	83,97
197,141	86,09
197,615	77,8
198,09	88,96
198,564	3,79
199,039	25,15
199,513	48,34
199,988	84,26
200,462	113,85
200,936	97,44
201,41	18,92
201,884	41,48
202,358	19
202,832	-117,13
203,306	-14,38
203,78	-12,76
204,254	113,48
204,728	349,04
205,201	56,85
205,675	-5651,43
206,148	25,9
206,622	154,75
207,095	64,18
207,569	817,14
208,042	7,81
208,515	25,99
208,988	26,6
209,461	171,34
209,935	161,85
210,408	196,4
210,88	63,67
211,353	140,57
211,826	96,81
212,299	-2862,86
212,772	37,47
213,244	33,68
213,717	-15,06
214,189	69,72
214,662	122,19
215,134	17,4
215,606	-82,98
216,079	-1,33
216,551	82,38
217,023	95,93
217,495	638,97
217,967	-72,76
218,439	-14,59
218,911	138,63
219,383	37,22
219,855	33,93
220,326	66,58
220,798	14,97
221,27	17,42
221,741	205,63
222,213	28,96
222,684	68,01
223,155	-67,4
223,627	39,14
224,098	-111,76
224,569	117,4
225,04	-243,94
225,511	97,67
225,982	73,87
226,453	105,7
226,924	78,21
227,395	61,88
227,865	123,31
228,336	-3,67
228,807	36,5
229,277	42,43
229,748	60,51
230,218	136
230,689	-17,1
231,159	-1468,57
231,629	8,63
232,099	44
232,57	117,4
233,04	-27,1
233,51	49,42
233,98	63,6
234,449	158,65
234,919	-8,93
235,389	-22,34
235,859	-3,58
236,328	67,12
236,798	156,08
237,267	37,96
237,737	-137,98
238,206	93,99
238,676	-120
239,145	114,05
239,614	1,27
240,083	29,52
240,552	-28,06
241,021	95,7
241,49	83,41
241,959	-133,41
242,428	308,91
242,897	58,69
243,366	19,64
243,834	38,9
244,303	83,38
244,771	216,55
245,24	51,98
245,708	-132,87
246,177	186,27
246,645	-23,88
247,113	86
247,581	-10,53
248,05	53,67
248,518	19,39
248,986	47,75
249,454	84,99
249,921	43,93
250,389	101,52
250,857	88,7
251,325	66,15
251,792	97,17
252,26	0,38
252,727	-38,9
253,195	-24,17
253,662	-299,73
254,13	-162,16
254,597	-365,85
255,064	107,48
255,531	5,41
255,998	-140,36
256,465	275,79
256,932	36,23
257,399	44,25
257,866	34,4
258,333	41,69
258,799	0,11
259,266	55,74
259,733	47,12
260,199	57,16
260,666	46,53
261,132	-92,54
261,599	261,8
262,065	166,86
262,531	55,75
262,997	101,96
263,463	103,15
263,929	44,56
264,395	39,7
264,861	914,15
265,327	225,41
265,793	-51,66
266,259	217,99
266,724	33,76
267,19	-11,61
267,656	820,8
268,121	-54,25
268,586	-186,07
269,052	1731,43
269,517	52,7
269,982	14,38
270,448	2,77
270,913	41,39
271,378	94,21
271,843	183,52
272,308	60,56
272,773	108,05
273,238	89,23
273,702	64,27
274,167	19,72
274,632	180,97
275,096	771,43
275,561	230,68
276,025	112,44
276,49	11,97
276,954	40
277,418	118,08
277,882	64,71
278,347	103,8
278,811	3,12
279,275	-34,12
279,739	64,86
280,203	-214,12
280,667	-62,1
281,13	-114,81
281,594	173,11
282,058	60,81
282,521	-86,54
282,985	-67,87
283,448	89,1
283,912	236,49
284,375	-99,02
284,839	62,28
285,302	74,91
285,765	121,95
286,228	52,86
286,691	188,36
287,154	539,2
287,617	-64,59
288,08	9,08
288,543	95,26
289,006	74,54
289,468	85,71
289,931	-211,43
290,393	-20,28
290,856	75,28
291,318	95,49
291,781	15,95
292,243	582,61
292,705	87,84
293,168	7,81
293,63	-2,19
294,092	28,26
294,554	134,67
295,016	77,12
295,478	205,63
295,94	68,24
296,402	117,05
296,863	71,53
297,325	-433,04
297,787	-12,02
298,248	18,53
298,71	142,92
299,171	-603,9
299,632	94,96
300,094	50,97
300,555	-1,17
301,016	-102,01
301,477	13,14
301,938	50,3
302,399	142,52
302,86	14,15
303,321	45,14
303,782	83,87
304,243	120,85
304,703	132,39
305,164	365,63
305,625	61,99
306,085	51,68
306,546	93,23
307,006	54,56
307,466	47,25
307,927	83,27
308,387	21,03
308,847	139,21
309,307	70,07
309,767	75,27
310,227	95,21
310,687	48,04
311,147	67,28
311,606	-31,64
312,066	229,77
312,526	21,88
312,985	31,96
313,445	52,25
313,905	131,24
314,364	-126,64
314,823	-71,72
315,283	76,41
315,742	54,92
316,201	48,88
316,66	31,15
317,119	-670,24
317,578	59,78
318,037	49,91
318,496	-20,54
318,955	67,35
319,414	-216,9
319,872	127,84
320,331	34,5
320,789	82,56
321,248	33,54
321,706	22,71
322,165	112,08
322,623	87,06
323,081	183,91
323,54	199,46
323,998	3186,67
324,456	72,41
324,914	-40,59
325,372	19,1
325,83	73,78
326,288	218,96
326,745	147,18
327,203	119,08
327,661	224,11
328,118	39,15
328,576	93,96
329,033	23,57
329,491	-27,29
329,948	-12,65
330,405	63,67
330,863	-864,35
331,32	43,85
331,777	17,59
332,234	-69,18
332,691	140,67
333,148	106,12
333,605	7,04
334,062	15,97
334,518	61,73
334,975	-12,64
335,432	205,52
335,888	-63,28
336,345	-20,98
336,801	1182,86
337,258	2196,8
337,714	-4,14
338,17	36,7
338,626	-70,77
339,083	-188,57
339,539	82,45
339,995	78,39
340,451	84,27
340,906	128,75
341,362	605,85
341,818	-46,86
342,274	56,43
342,729	193,04
343,185	65,35
343,641	65,1
344,096	72,25
344,552	77
345,007	16,51
345,462	142,25
345,917	157,3
346,373	-472
346,828	287,67
347,283	-394,87
347,738	211,27
348,193	-448,21
348,648	-55,68
349,102	13,03
349,557	-181,54
350,012	11,15
350,466	41,16
350,921	73,09
351,375	-68,8
351,83	213,22
352,284	2564,44
352,739	-338,59
353,193	153,46
353,647	-191,46
354,101	21,28
354,555	82,28
355,009	11,33
355,463	-214,12
355,917	210,58
356,371	92,38
356,825	17,22
357,279	182,02
357,732	161,21
358,186	57,15
358,639	-8,62
359,093	72,86
359,546	100,29
360	60,62
360,453	25,08
360,906	1817,78
361,359	187,81
361,812	66,53
362,265	90,07
362,718	53,22
363,171	65,75
363,624	111,69
364,077	263,56
364,53	75,99
364,982	83,43
365,435	137,73
365,888	52,7
366,34	75,5
366,793	-77,89
367,245	-70,22
367,697	-442,91
368,15	98,67
368,602	140,14
369,054	125,85
369,506	47,37
369,958	348,36
370,41	-214,65
370,862	50,35
371,314	68,66
371,766	31,94
372,217	348,29
372,669	206,58
373,121	126,15
373,572	40,87
374,024	70,31
374,475	40,95
374,926	210,46
375,378	171,62
375,829	23,24
376,28	4,7
376,731	134,81
377,182	28,66
377,633	343,16
378,084	167,87
378,535	230,56
378,986	205,61
379,437	182,92
379,887	96,52
380,338	83,4
380,788	4428,57
381,239	-134,55
381,689	35,99
382,14	17,14
382,59	75,02
383,04	321,9
383,491	59,4
383,941	81,12
384,391	7,12
384,841	91,53
385,291	84,07
385,741	114,89
386,191	93,2
386,64	8,12
387,09	8,41
387,54	268,74
387,989	61,09
388,439	13,72
388,888	25,88
389,338	65,77
389,787	105,27
390,236	34,29
390,686	54,69
391,135	58,56
391,584	82,99
392,033	1,28
392,482	23,9
392,931	47,35
393,38	61,47
393,829	91,63
394,277	72,81
394,726	122,92
395,175	64,3
395,623	153,74
396,072	82,19
396,52	35,83
396,969	102,77
397,417	92,89
397,865	-419,13
398,313	46,64
398,762	69,09
399,21	-25,11
399,658	66,94
400,106	80,4
400,554	31,66
401,001	82,25
401,449	56,48
401,897	71,21
402,345	28,43
402,792	96,4
403,24	55,53
403,687	89,13
404,135	89,39
404,582	61,34
405,029	72,13
405,477	62,5
405,924	51,59
406,371	71,48
406,818	71,91
407,265	74,28
407,712	75
408,159	56,01
408,606	61,03
409,052	38,58
409,499	58,4
409,946	56,29
410,392	69,73
410,839	58,25
411,285	86,9
411,732	72,23
412,178	54,53
412,624	62,47
413,07	69,96
413,517	59,09
413,963	69,2
414,409	69,79
414,855	77,28
415,301	66,47
415,746	72,84
416,192	69,4
416,638	75,02
417,084	70,65
417,529	70,26
417,975	67,51
418,42	66,64
418,866	64,72
419,311	75,47
419,756	67,15
420,202	68,13
420,647	67,22
421,092	71,38
421,537	67,89
421,982	68,25
422,427	71,07
422,872	68,62
423,317	67,28
423,762	70,17
424,206	68,23
424,651	69,02
425,095	71,44
425,54	66,77
425,984	69,7
426,429	70,56
426,873	69,87
427,317	67,9
427,762	68,15
428,206	69,64
428,65	68,9
429,094	70,39
429,538	69,87
429,982	72,36
430,426	70,19
430,87	70,28
431,313	69,11
431,757	70,69
432,201	70,35
432,644	70,4
433,088	70,61
433,531	69,22
433,974	71,12
434,418	70,55
434,861	71,06
435,304	71,23
435,747	71,11
436,19	71,42
436,633	72,24
437,076	72,19
437,519	72,03
437,962	72,09
438,405	72,7
438,848	72,11
439,29	72,68
439,733	72,41
440,175	72,49
440,618	73,04
441,06	72,18
441,503	73,47
441,945	73,25
442,387	73,61
442,829	73,35
443,271	73,49
443,713	73,43
444,155	73,72
444,597	73,59
445,039	73,69
445,481	72,73
445,923	72,71
446,364	71,95
446,806	72,8
447,248	72,86
447,689	71,63
448,131	72,03
448,572	72,1
449,013	72,22
449,455	70,72
449,896	70,78
450,337	71,12
450,778	71,03
451,219	70,21
451,66	70,07
452,101	69,79
452,542	70,06
452,983	69,89
453,423	69,04
453,864	68,57
454,305	68,4
454,745	68,7
455,186	69,13
455,626	68,25
456,066	68,19
456,507	67,72
456,947	68,26
457,387	68,1
457,827	68,54
458,267	69,66
458,707	69,93
459,147	69,37
459,587	69,52
460,027	68,14
460,467	69,29
460,906	70,16
461,346	70,58
461,786	70,14
462,225	69,56
462,664	70,31
463,104	69,59
463,543	69,03
463,982	69,15
464,422	69,21
464,861	70,25
465,3	69,48
465,739	69,09
466,178	68,69
466,617	68,59
467,056	67,93
467,495	68,92
467,933	67,88
468,372	69,37
468,811	67,99
469,249	68,68
469,688	68,69
470,126	68,35
470,564	68,62
471,003	67,33
471,441	68,14
471,879	69,83
472,317	68,75
472,755	68,5
473,193	68,37
473,631	69,61
474,069	69,28
474,507	67,95
474,945	69,65
475,382	68,69
475,82	68,23
476,258	69,25
476,695	69
477,133	71,12
477,57	69,28
478,007	71,41
478,445	71,03
478,882	70,96
479,319	70,24
479,756	68,61
480,193	69,18
480,63	69,25
481,067	68,22
481,504	69,87
481,941	71,2
482,378	70,2
482,814	71,36
483,251	70,6
483,687	71,48
484,124	69,96
484,56	70,55
484,997	69,81
485,433	72,54
485,869	71,17
486,306	70,04
486,742	70,9
487,178	71,8
487,614	70,95
488,05	71,18
488,486	71,76
488,922	70,07
489,357	71,42
489,793	72,31
490,229	71,29
490,664	71,79
491,1	71,12
491,535	72,91
491,971	72,25
492,406	72,32
492,841	71,05
493,277	72,74
493,712	71,71
494,147	71,81
494,582	72,42
495,017	71,9
495,452	71,79
495,887	72,05
496,322	72,54
496,756	72,79
497,191	72,03
497,626	71,99
498,06	73,29
498,495	71,76
498,929	72,74
499,364	73,65
499,798	72,41
500,232	72
500,667	72,99
501,101	71,96
501,535	72,05
501,969	71,36
502,403	72,09
502,837	72,58
503,271	72,59
503,704	71,91
504,138	71,67
504,572	71,99
505,005	73,25
505,439	71,9
505,872	71,87
506,306	72,75
506,739	72,66
507,173	71,7
507,606	73,06
508,039	73,1
508,472	72,07
508,905	71,84
509,338	71,73
509,771	72,43
510,204	71,44
510,637	72
511,07	73,05
511,502	71,73
511,935	72,93
512,368	73,22
512,8	72,17
513,233	72,09
513,665	72,59
514,097	71,71
514,53	72,93
514,962	72,42
515,394	71,52
515,826	72,77
516,258	72,17
516,69	72,51
517,122	71,67
517,554	72,19
517,986	72,56
518,418	72,36
518,849	71,93
519,281	72,73
519,713	72,34
520,144	71,93
520,575	72,45
521,007	72,02
521,438	72,81
521,869	71,99
522,301	73,12
522,732	72,77
523,163	72,22
523,594	72,43
524,025	71,93
524,456	71,78
524,887	72,93
525,317	72,71
525,748	72,84
526,179	72,64
526,609	72,99
527,04	72,34
527,471	71,69
527,901	72,12
528,331	72,22
528,762	72,54
529,192	72,3
529,622	72,27
530,052	71,76
530,482	72,84
530,912	72,25
531,342	72,71
531,772	72,22
532,202	72,83
532,632	72,23
533,061	72,25
533,491	72,08
533,921	72,37
534,35	72,28
534,78	73
535,209	72,44
535,638	72,56
536,068	72,39
536,497	72,84
536,926	72,75
537,355	72,53
537,784	72,44
538,213	72,72
538,642	72,43
539,071	72,96
539,5	73,5
539,929	72,27
540,357	72,87
540,786	73,05
541,214	73,27
541,643	72,33
542,071	72,82
542,5	73,09
542,928	72,98
543,356	72,33
543,785	72,43
544,213	72,46
544,641	72,75
545,069	72,94
545,497	73,15
545,925	73,18
546,353	72,53
546,78	72,52
547,208	72,94
547,636	73,15
548,063	72,76
548,491	73,05
548,918	72,87
549,346	72,53
549,773	72,93
550,201	72,26
550,628	73,13
551,055	73,37
551,482	73,49
551,909	73,15
552,336	72,97
552,763	72,86
553,19	73,13
553,617	73,3
554,044	73,27
554,47	72,73
554,897	73,13
555,324	73,22
555,75	73,39
556,177	73,08
556,603	73,4
557,029	72,91
557,456	73,3
557,882	73,55
558,308	73,44
558,734	73,06
559,16	73,62
559,586	73,64
560,012	74,02
560,438	73,98
560,864	73,41
561,289	73,23
561,715	73,61
562,141	73,12
562,566	73,32
562,992	73,09
563,417	73,54
563,843	73,33
564,268	73,04
564,693	73,34
565,118	73,71
565,544	73,5
565,969	73,4
566,394	73,44
566,819	73,78
567,244	73,62
567,668	73,85
568,093	73,84
568,518	73,91
568,943	73,69
569,367	73,58
569,792	73,38
570,216	73,54
570,641	73,56
571,065	73,26
571,489	73,74
571,914	73,79
572,338	73,5
572,762	73,87
573,186	73,36
573,61	73,08
574,034	73,44
574,458	73,94
574,882	73,87
575,306	73,69
575,729	73,53
576,153	73,42
576,576	73,62
577	73,31
577,423	73,79
577,847	74,41
578,27	73,69
578,694	73,75
579,117	73,86
579,54	73,64
579,963	73,32
580,386	73,56
580,809	73,13
581,232	73,56
581,655	73,49
582,078	74,07
582,5	74,18
582,923	73,75
583,346	73,17
583,768	74,02
584,191	73,27
584,613	73,4
585,036	73,11
585,458	73,39
585,88	73,6
586,302	74,3
586,725	74,08
587,147	73,62
587,569	73,56
587,991	73,27
588,413	73,71
588,834	73,92
589,256	73,38
589,678	73,09
590,1	73,16
590,521	74,44
590,943	73,6
591,364	73,95
591,786	74,09
592,207	73,89
592,628	74,24
593,05	73,76
593,471	74,67
593,892	73,44
594,313	73,8
594,734	73,85
595,155	74,25
595,576	74,19
595,997	73,98
596,418	74,63
596,838	74,03
597,259	73,44
597,68	73,96
598,1	74,05
598,521	73,92
598,941	74,07
599,361	73,41
599,782	73,72
600,202	72,84
600,622	74,3
601,042	73,64
601,462	72,99
601,882	73,27
602,302	73,4
602,722	73,96
603,142	73,12
603,562	73,63
603,981	73,8
604,401	74,02
604,821	74,4
605,24	73,77
605,66	73,67
606,079	73,81
606,498	73,15
606,918	74,39
607,337	74,44
607,756	74,32
608,175	74,03
608,594	74,17
609,013	74,3
609,432	74,71
609,851	74,74
610,27	74,09
610,688	74,17
611,107	74,56
611,526	73,73
611,944	74,15
612,363	74,35
612,781	73,55
613,2	74,18
613,618	73,57
614,036	74,43
614,454	74,03
614,872	73,95
615,291	74,33
615,709	73,02
616,127	74,5
616,544	73,09
616,962	74,03
617,38	74,21
617,798	74,74
618,215	73,68
618,633	74,75
619,051	73,55
619,468	73,84
619,886	73,65
620,303	73,84
620,72	73,87
621,137	73,9
621,555	74,18
621,972	74,27
622,389	73,57
622,806	74,1
623,223	74,38
623,64	73,44
624,056	73,19
624,473	74,23
624,89	73,85
625,307	73,81
625,723	73,69
626,14	73,73
626,556	74,32
626,973	74,15
627,389	73,66
627,805	73,74
628,221	73,35
628,638	73,86
629,054	74,53
629,47	74,07
629,886	74,7
630,302	74,13
630,718	73,9
631,133	76,15
631,549	73,86
631,965	74,72
632,38	74,19
632,796	73,86
633,212	74,49
633,627	74,15
634,042	74,2
634,458	73,88
634,873	73,72
635,288	73,12
635,703	74,12
636,118	74,54
636,534	74,22
636,948	74,07
637,363	73,8
637,778	74,54
638,193	73,2
638,608	74,81
639,022	73,66
639,437	74,78
639,852	74,01
640,266	73,34
640,681	73,51
641,095	73,74
641,509	75,5
641,924	73,14
642,338	74,86
642,752	73,41
643,166	74,36
643,58	73,62
643,994	75,31
644,408	75,38
644,822	73,97
645,235	74,13
645,649	74,09
646,063	74,38
646,476	75,32
646,89	73,75
647,303	75,37
647,717	75,31
648,13	74,68
648,544	75,05
648,957	73,96
649,37	73,7
649,783	73,37
650,196	74,12
650,609	73,76
651,022	73,8
651,435	73,97
651,848	74,67
652,261	74,03
652,673	73,98
653,086	73,69
653,499	74,29
653,911	72,85
654,324	74,96
654,736	74,79
655,148	73,51
655,561	72,87
655,973	74,46
656,385	73,75
656,797	74
657,209	75,9
657,621	73,36
658,033	74,69
658,445	73,1
658,857	72,15
659,269	75,23
659,68	74,74
660,092	73,32
660,503	74,55
660,915	71,92
661,326	72,54
661,738	75,59
662,149	73,99
662,56	71,43
662,972	71,87
663,383	73,74
663,794	72,9
664,205	72,97
664,616	74,53
665,027	73,53
665,438	73,99
665,848	73,3
666,259	74,18
666,67	73,97
667,08	75,89
667,491	73,12
667,902	74,09
668,312	73,65
668,722	72,42
669,133	73,15
669,543	74,83
669,953	75,66
670,363	71,98
670,773	74,12
671,183	74,79
671,593	72,55
672,003	76,29
672,413	74,04
672,823	73,03
673,233	73,75
673,642	73,08
674,052	74,25
674,461	75,12
674,871	73,81
675,28	74,6
675,69	73,42
676,099	73,14
676,508	73,84
676,917	74,69
677,327	75,82
677,736	74,11
678,145	75,65
678,554	74,36
678,962	73,03
679,371	75,03
679,78	72,66
680,189	73,32
680,597	78,42
681,006	75,69
681,415	74,62
681,823	73,21
682,231	74,92
682,64	76,7
683,048	74,47
683,456	75,32
683,865	76,9
684,273	74,44
684,681	73,85
685,089	76,55
685,497	74,62
685,905	71,31
686,312	76,62
686,72	74,3
687,128	72,91
687,535	74,97
687,943	75,1
688,351	77,2
688,758	75,74
689,165	75,42
689,573	74,08
689,98	77,37
690,387	73,48
690,794	76,26
691,201	74
691,609	77,61
692,016	75,42
692,422	74,12
692,829	76,53
693,236	72,7
693,643	74,52
694,05	76,62
694,456	75,26
694,863	75,24
695,269	72,68
695,676	75,98
696,082	78,33
696,488	77,89
696,895	70,4
697,301	74,6
697,707	75,41
698,113	75,81
698,519	77,18
698,925	80,12
699,331	70,96
699,737	74,77
700,143	73,76
700,548	76,55
700,954	75,23
701,36	73,95
701,765	72,96
702,171	73,23
702,576	77,81
702,982	74,58
703,387	71,17
703,792	73,54
704,197	71,52
704,603	68,03
705,008	73,99
705,413	77,09
705,818	81,11
706,222	71,01
706,627	77,68
707,032	77,6
707,437	75,1
707,841	84,7
708,246	67,63
708,651	70,63
709,055	79,46
709,46	73,81
709,864	77,52
710,268	72,24
710,672	72,23
711,077	72,82
711,481	77,28
711,885	76,27
712,289	76,93
712,693	73,67
713,097	70,57
713,501	76,01
713,904	73,03
714,308	68,8
714,712	72,39
715,115	72,28
715,519	80,66
715,922	74,44
716,326	67,82
716,729	73,78
717,132	70,03
717,536	70,67
717,939	74,61
718,342	71,45
718,745	73,63
719,148	83,67
719,551	70,94
719,954	67,32
720,357	69,52
720,759	81,59
721,162	80,17
721,565	77,33
721,967	76,06
722,37	82,11
722,772	83,04
723,175	80,26
723,577	80,16
723,979	79,67
724,381	70,92
724,784	68,71
725,186	70,89
725,588	70,53
725,99	77,16
726,392	84,38
726,794	72,96
727,195	76,46
727,597	76,85
727,999	69,46
728,4	80,08
728,802	95,68
729,204	71,48
729,605	72,02
730,006	70,47
730,408	72,47
730,809	79,83
731,21	74,41
731,611	79,51
732,012	71,54
732,414	79,25
732,814	78,45
733,215	84,38
733,616	81,7
734,017	80,94
734,418	88,4
734,818	74,49
735,219	84,01
735,62	81,91
736,02	82,2
736,421	71,62
736,821	60,64
737,221	71,49
737,622	76,66
738,022	56,32
738,422	73,03
738,822	75,96
739,222	67,47
739,622	63,16
740,022	71,56
740,422	71,67
740,822	75,29
741,221	65,6
741,621	68,18
742,021	115,27
742,42	66,03
742,82	55,56
743,219	80,15
743,618	89,02
744,018	69,28
744,417	61,72
744,816	72,64
745,215	86,91
745,614	77,83
746,013	85,32
746,412	67,15
746,811	63,97
747,21	80,93
747,609	86,51
748,008	82,86
748,406	89,05
748,805	83,48
749,203	92,65
749,602	84,22
750	86,42
750,399	68,26
750,797	84,34
751,195	98,57
751,593	85,17
751,992	53,4
752,39	84,85
752,788	58,08
753,186	67,95
753,583	70,59
753,981	80,1
754,379	69,15
754,777	84,87
755,174	70,53
755,572	68,58
755,97	50,76
756,367	61,49
756,764	70,3
757,162	69,79
757,559	102,29
757,956	79,83
758,354	78,93
758,751	78,64
759,148	33,59
759,545	47,63
759,942	100,48
760,339	196,75
760,735	61,18
761,132	106,65
761,529	100,66
761,925	113,66
762,322	85,97
762,719	78,34
763,115	79,23
763,511	48,64
763,908	211,06
764,304	71,12
764,7	64,56
765,097	62,13
765,493	78,19
765,889	55,81
766,285	73,15
766,681	71,94
767,076	68,43
767,472	11,25
767,868	64,73
768,264	112,93
768,659	51,1
769,055	101,55
769,45	31,98
769,846	93,2
770,241	61,24
770,637	64,37
771,032	47,65
771,427	78,33
771,822	101,67
772,217	114,96
772,612	99,56
773,007	57,24
773,402	103,36
773,797	74,83
774,192	99,07
774,587	90,61
774,981	66,87
775,376	78,69
775,771	88,93
776,165	106,59
776,56	111,03
776,954	62,3
777,348	110,01
777,743	66,43
778,137	54,17
778,531	76,53
778,925	127,32
779,319	86,48
779,713	16,95
780,107	166,77
780,501	123,89
780,895	71,73
781,288	116,99
781,682	36,47
782,076	62,81
782,469	135,19
782,863	58,15
783,256	120,72
783,65	47,29
784,043	151,44
784,436	83,31
784,829	93,66
785,223	265,88
785,616	64,86
786,009	15,15
786,402	71,3
786,795	126,34
787,187	54,81
787,58	51,46
787,973	65,09
788,366	8,2
788,758	-170,53
789,151	67,09
789,543	31,2
789,936	101,94
790,328	88,75
790,72	55,36
791,113	-30,82
791,505	182,22
791,897	56,22
792,289	76,76
792,681	8,41
793,073	342,47
793,465	-437,09
793,857	122,3
794,249	60,21
794,64	38,8
795,032	18,04
795,424	74,16
795,815	-130,67
796,207	56,31
796,598	43,11
796,989	51,98
797,381	69,22
797,772	84,03
798,163	78,3
798,554	51,41
798,945	195,43
799,336	-68,11
799,727	146,04
800,118	11,79
800,509	105,1
800,9	-23,79
801,291	118,49
801,681	146,42
802,072	193,35
802,462	62,7
802,853	203,71
803,243	77,89
803,634	-150,42
804,024	347,81
804,414	91,41
804,804	-1285,71
805,195	23,38
805,585	27,92
805,975	82,94
806,365	219,85
806,755	402,67
807,144	-5491,43
807,534	177,14
807,924	194,24
808,314	57,93
808,703	60,59
809,093	128,36
809,482	6,12
809,872	205,29
810,261	66,7
810,65	58,38
811,039	91,94
811,429	10,68
811,818	123,58
812,207	86,97
812,596	274,26
812,985	26,6
813,374	53,31
813,762	12,96
814,151	43,21
814,54	141,01
814,929	85,37
815,317	112,68
815,706	185,36
816,094	124,46
816,483	80,78
816,871	177,81
817,259	14,05
817,648	-13,09
818,036	135,21
818,424	-88,26
818,812	79,25
819,2	-4,42
819,588	49
819,976	26,89
820,364	54,74
820,751	466,67
821,139	75,16
821,527	217,04
821,914	15,79
822,302	104,91
822,689	-79,61
823,077	41,97
823,464	22,22
823,851	-57,29
824,238	99,2
824,626	-7,72
825,013	52,47
825,4	526,58
825,787	596,52
826,174	-33,42
826,561	154,29
826,947	165,49
827,334	100,95
827,721	31,18
828,108	37,05
828,494	141,44
828,881	351,79
829,267	81,34
829,654	40,49
830,04	1,42
830,426	89,66
830,812	77,55
831,199	-10,06
831,585	23,28
831,971	68,27
832,357	60,53
832,743	80,39
833,129	-0,78
833,514	110,04
833,9	1675,56
834,286	43,14
834,671	65,04
835,057	179,85
835,443	-36,35
835,828	17,57
836,213	62,92
836,599	1505,6
836,984	210,67
837,369	20,4
837,754	71,02
838,139	72,93
838,525	-20,97
838,91	54,18
839,294	47,78
839,679	115,29
840,064	60,61
840,449	-15,15
840,834	133,79
841,218	202,06
841,603	61,33
841,987	177,88
842,372	75,01
842,756	136,17
843,14	225,26
843,525	19,09
843,909	-61,05
844,293	78,81
844,677	634,87
845,061	26,18
845,445	74,65
845,829	41,29
846,213	87,45
846,597	87,79
846,981	60,58
847,364	45,29
847,748	1211,2
848,132	-25,85
848,515	-22,15
848,898	200
849,282	7,38
849,665	-165,03
850,048	-401,6
850,432	26,56
850,815	-3982,86
851,198	-290,96
851,581	35,11
851,964	90,96
852,347	125,78
852,73	-13,33
853,113	25,32
853,495	8,1
853,878	25,94
854,261	12,02
854,643	90,11
855,026	-58,46
855,408	125,48
855,791	1081,95
856,173	51,59
856,555	75,87
856,937	-71,41
857,32	87,06
857,702	159,22
858,084	-0,89
858,466	109,36
858,848	86,14
859,229	75,27
859,611	72,27
859,993	860,36
860,375	63,86
860,756	16,7
861,138	78,45
861,519	53,13
861,901	103,47
862,282	-161,51
862,663	-157,75
863,045	131,83
863,426	145,75
863,807	94,48
864,188	78,51
864,569	-157,75
864,95	-899,49
865,331	-266,09
865,712	41,07
866,093	-80,79
866,474	150,29
866,854	-48,09
867,235	166,94
867,615	205,16
867,996	-19,01
868,376	79,51
868,757	-34,05
869,137	-9,66
869,517	10,63
869,898	10,57
870,278	-30,45
870,658	-302,07
871,038	61,23
871,418	-669,57
871,798	-64,37
872,178	173,76
872,557	5937,14
872,937	43,18
873,317	110,48
873,696	2394,29
874,076	116,5
874,455	38,48
874,835	30,53
875,214	-37,42
875,594	94,2
875,973	320,45
876,352	55,38
876,731	61,85
877,11	-35,18
877,489	101,36
877,868	-142,54
878,247	106,63
878,626	58,99
879,005	63,21
879,384	376,18
879,762	255,65
880,141	84,61
880,519	200
880,898	189,13
881,276	140,32
881,655	166,47
882,033	51,5
882,411	61,47
882,79	78,55
883,168	26,72
883,546	46,27
883,924	168
884,302	-28,8
884,68	76,56
885,058	74,26
885,435	44,51
885,813	6,49
886,191	114,73
886,568	-153,1
886,946	77,1
887,323	616
887,701	61,76
888,078	47,97
888,456	5444,44
888,833	45,09
889,21	85,02
889,587	-171,83
889,964	72,08
890,341	43,29
890,718	-20,41
891,095	-226,67
891,472	155,32
891,849	-41,21
892,226	4,07
892,602	38,27
892,979	-238,26
893,355	-4,71
893,732	-210,18
894,108	71,87
894,485	28,55
894,861	43,71
895,237	68,37
895,614	74,99
895,99	-64,22
896,366	57,78
896,742	177,51
897,118	55,69
897,494	148,76
897,87	283,29
898,245	29,88
898,621	-5,88
898,997	49,85
899,372	83,69
899,748	40
900,123	159,8
900,499	41,47
900,874	296
901,25	41,49
901,625	-27,95
902	29,7
902,375	85,44
902,75	245,07
903,125	244,91
903,5	79,52
903,875	53,1
904,25	22,76
904,625	-33,27
905	520
905,374	0,49
905,749	81,03
906,123	84,1
906,498	874,78
906,872	6,96
907,247	2,35
907,621	59,92
907,995	-0,42
908,37	82,6
908,744	-37,39
909,118	72,39
909,492	148,82
909,866	69,86
910,24	97,5
910,614	885,71
910,987	81,12
911,361	-3,01
911,735	89,68
912,108	68,12
912,482	-56,57
912,855	62,66
913,229	605,85
913,602	46,49
913,976	42,23
914,349	205,75
914,722	-35,35
915,095	-24,71
915,468	137,08
915,841	249,75
916,214	-5,22
916,587	33,31
916,96	-50,07
917,333	60,19
917,706	21,99
918,078	102,11
918,451	59,5
918,823	1069,57
919,196	54,55
919,568	63,41
919,941	74,25
920,313	201,59
920,685	43,4
921,058	28,23
921,43	-1553,04
921,802	49,36
922,174	83,76
922,546	351,27
922,918	73,23
923,29	79,84
923,661	-10,53
924,033	175,38
924,405	28,34
924,776	64,15
925,148	184,76
925,52	79,69
925,891	32,95
926,262	91,58
926,634	98,97
927,005	13,01
927,376	87,61
927,747	38,69
928,118	83,1
928,489	144,95
928,86	-184
929,231	-1857,14
929,602	-170,53
929,973	121,45
930,344	38,78
930,714	-90,59
931,085	74,7
931,456	2,13
931,826	37,34
932,197	151,26
932,567	156,45
932,937	-17,01
933,308	1249,6
933,678	95,17
934,048	-24
934,418	222,46
934,788	205,84
935,158	-3,72
935,528	69,2
935,898	-88
936,268	87,6
936,637	16,78
937,007	108,87
937,377	51,36
937,746	-60,84
938,116	35,18
938,485	36,16
938,855	-152,82
939,224	-14,03
939,593	74,59
939,962	40
940,331	59,01
940,701	56,26
941,07	16,82
941,439	52,86
941,808	21,22
942,176	108,98
942,545	59,1
942,914	40,72
943,283	124,05
943,651	81
944,02	180,7
944,388	458,91
944,757	68,31
945,125	227,77
945,493	253,33
945,862	80,38
946,23	29,65
946,598	-673,85
946,966	188,36
947,334	-13,87
947,702	-231,24
948,07	79,36
948,438	206,96
948,806	144,13
949,174	22,01
949,541	-14,89
949,909	104,68
950,276	-17,6
950,644	26,87
951,011	-146,41
951,379	184,66
951,746	-42,25
952,113	14,74
952,481	-9,58
952,848	14,96
953,215	99,22
953,582	74,3
953,949	92,93
954,316	98,22
954,683	115,5
955,05	239,11
955,416	75,33
955,783	151,6
956,15	123,12
956,516	88,05
956,883	63,88
957,249	134,71
957,616	110,06
957,982	152,59
958,348	65,36
958,714	474,29
959,081	-331,2
959,447	22,08
959,813	60,31
960,179	-37,19
960,545	18,87
960,911	114,67
961,276	42,88
961,642	7,07
962,008	12,9
962,373	80,19
962,739	119,71
963,105	153,38
963,47	30,92
963,835	-619,51
964,201	840
964,566	14,19
964,931	66,58
965,296	686,4
965,662	-7,11
966,027	60,3
966,392	114,74
966,756	113,56
967,121	-49,96
967,486	-106,02
967,851	94,47
968,216	56,55
968,58	87,41
968,945	431,11
969,309	218,82
969,674	3,02
970,038	64,53
970,403	-15,05
970,767	20,53
971,131	74,69
971,495	49,06
971,859	67,93
972,223	113,2
972,587	43,5
972,951	-795,12
973,315	52,64
973,679	78,54
974,043	41,4
974,407	57,53
974,77	48,37
975,134	106,26
975,497	28,53
975,861	40,69
976,224	-1,61
976,588	15,06
976,951	59,87
977,314	119,23
977,677	67,95
978,04	36,17
978,403	-8,87
978,766	49,59
979,129	71,05
979,492	1937,14
979,855	-469,3
980,218	76,39
980,581	68,86
980,943	20,5
981,306	51,67
981,668	59,32
982,031	94,56
982,393	238,1
982,756	-11,56
983,118	104,34
983,48	-19,22
983,842	-99,49
984,204	59,63
984,566	2440
984,928	19,91
985,29	76,5
985,652	129,46
986,014	121,73
986,376	89,75
986,738	-30,05
987,099	30,67
987,461	-3,21
987,822	49,2
988,184	47,71
988,545	206,4
988,907	117,89
989,268	-23,46
989,629	-129,34
989,99	33,13
990,352	19,69
990,713	177,06
991,074	99,76
991,435	941,46
991,795	155,09
992,156	-72,32
992,517	40
992,878	34,1
993,238	82,86
993,599	-117,31
993,96	82,62
994,32	57,91
994,681	140,5
995,041	285,85
995,401	212,43
995,761	35,05
996,122	-106,23
996,482	-38,49
996,842	-12,52
997,202	17,51
997,562	-22,09
997,922	106,18
998,282	175,06
998,641	-7,88
999,001	82,82
999,361	179,13
999,72	-5,25
1000,08	17,57
1000,439	69,49
1000,799	-3434,29
1001,158	444,21
1001,518	405,07
1001,877	40,26
1002,236	4,04
1002,595	72
1002,954	229,15
1003,313	59,04
1003,672	-183,79
1004,031	-13,7
1004,39	255,13
1004,749	332,68
1005,107	43,59
1005,466	249,85
1005,825	89,32
1006,183	-164,94
1006,542	5,6
1006,9	238,54
1007,259	-32,73
1007,617	17,79
1007,975	-190,4
1008,333	71,15
1008,692	786,67
1009,05	-794,78
1009,408	22,11
1009,766	27,05
1010,124	-340,85
1010,481	49,51
1010,839	-0,46
1011,197	312,76
1011,555	94,31
1011,912	89,75
1012,27	117,19
1012,627	-766,96
1012,985	31,74
1013,342	-122,91
1013,7	68,75
1014,057	41,76
1014,414	59,43
1014,771	545,6
1015,128	295,62
1015,485	52,95
1015,842	52,16
1016,199	53,01
1016,556	131,66
1016,913	203,05
1017,27	56,09
1017,626	1,9
1017,983	-121,17
1018,339	93,13
1018,696	59,93
1019,052	101,54
1019,409	109,17
1019,765	70,84
1020,121	-75,5
1020,478	29,46
1020,834	101,83
1021,19	110,14
1021,546	97,79
1021,902	-123,46
1022,258	114,92
1022,614	27,47
1022,97	130,9
1023,325	137,89
1023,681	81,86
1024,037	16,66
1024,392	-14,72
1024,748	77,42
1025,103	1977,78
1025,459	35,48
1025,814	50,43
1026,169	-131,06
1026,525	152,1
1026,88	334,4
1027,235	-19,6
1027,59	54,33
1027,945	-197,39
1028,3	187,15
1028,655	251,57
1029,009	28,08
1029,364	60,13
1029,719	-6,84
1030,074	5,8
1030,428	143,17
1030,783	69,41
1031,137	-121,89
1031,492	406,55
1031,846	256,99
1032,2	59,06
1032,554	44,74
1032,909	118,16
1033,263	65,16
1033,617	65,16
1033,971	65,16
